# Analysis Created by 'NetAna'.
# AC Node Analysis of file: /home/jim/netana/netana/src/examples/ActiveBandPassFilter.txt
# Report file created: /home/jim/netana/netana/src/examples/ActiveBandPassFilter.report 
# Date Created: Wed Jun 11 17:04:20 2025
#


##### Units = Volts ####

# FrequencyHZ       Magnitude(db)    Phase Angle(deg)
     50.00            -23.6227            -94.5721
     51.00            -23.3349            -94.7264
     52.00            -23.0466            -94.8862
     53.00            -22.7576            -95.0520
     54.00            -22.4675            -95.2240
     55.00            -22.1760            -95.4027
     56.00            -21.8830            -95.5887
     57.00            -21.5882            -95.7822
     58.00            -21.2912            -95.9841
     59.00            -20.9918            -96.1947
     60.00            -20.6896            -96.4149
     61.00            -20.3844            -96.6452
     62.00            -20.0758            -96.8867
     63.00            -19.7636            -97.1400
     64.00            -19.4473            -97.4062
     65.00            -19.1266            -97.6863
     66.00            -18.8011            -97.9817
     67.00            -18.4703            -98.2936
     68.00            -18.1339            -98.6235
     69.00            -17.7914            -98.9731
     70.00            -17.4422            -99.3443
     71.00            -17.0858            -99.7393
     72.00            -16.7217           -100.1605
     73.00            -16.3493           -100.6107
     74.00            -15.9677           -101.0929
     75.00            -15.5765           -101.6109
     76.00            -15.1746           -102.1689
     77.00            -14.7613           -102.7716
     78.00            -14.3356           -103.4246
     79.00            -13.8966           -104.1346
     80.00            -13.4430           -104.9093
     81.00            -12.9737           -105.7578
     82.00            -12.4873           -106.6910
     83.00            -11.9825           -107.7218
     84.00            -11.4576           -108.8659
     85.00            -10.9110           -110.1424
     86.00            -10.3410           -111.5742
     87.00             -9.7459           -113.1899
     88.00             -9.1240           -115.0245
     89.00             -8.4738           -117.1215
     90.00             -7.7946           -119.5350
     91.00             -7.0863           -122.3322
     92.00             -6.3510           -125.5962
     93.00             -5.5936           -129.4276
     94.00             -4.8237           -133.9446
     95.00             -4.0585           -139.2763
     96.00             -3.3256           -145.5454
     97.00             -2.6656           -152.8305
     98.00             -2.1310           -161.1079
     99.00             -1.7779           -170.1874
    100.00             -1.6500           -179.6903
    101.00             -1.7602           +170.8829
    102.00             -2.0851           +162.0087
    103.00             -2.5754           +154.0129
    104.00             -3.1746           +147.0311
    105.00             -3.8332           +141.0501
    106.00             -4.5146           +135.9730
    107.00             -5.1945           +131.6723
    108.00             -5.8582           +128.0210
    109.00             -6.4976           +124.9057
    110.00             -7.1089           +122.2310
    111.00             -7.6907           +119.9189
    112.00             -8.2432           +117.9064
    113.00             -8.7676           +116.1426
    114.00             -9.2651           +114.5868
    115.00             -9.7376           +113.2060
    116.00            -10.1867           +111.9735
    117.00            -10.6141           +110.8674
    118.00            -11.0214           +109.8700
    119.00            -11.4100           +108.9663
    120.00            -11.7813           +108.1440
    121.00            -12.1366           +107.3929
    122.00            -12.4769           +106.7043
    123.00            -12.8035           +106.0707
    124.00            -13.1171           +105.4859
    125.00            -13.4188           +104.9446
    126.00            -13.7092           +104.4421
    127.00            -13.9891           +103.9744
    128.00            -14.2593           +103.5380
    129.00            -14.5201           +103.1300
    130.00            -14.7724           +102.7476
    131.00            -15.0165           +102.3885
    132.00            -15.2529           +102.0506
    133.00            -15.4821           +101.7321
    134.00            -15.7044           +101.4314
    135.00            -15.9203           +101.1470
    136.00            -16.1300           +100.8776
    137.00            -16.3340           +100.6221
    138.00            -16.5324           +100.3793
    139.00            -16.7255           +100.1484
    140.00            -16.9137            +99.9286
    141.00            -17.0972            +99.7189
    142.00            -17.2761            +99.5188
    143.00            -17.4507            +99.3275
    144.00            -17.6211            +99.1445
    145.00            -17.7876            +98.9693
    146.00            -17.9504            +98.8013
    147.00            -18.1095            +98.6402
    148.00            -18.2652            +98.4855
    149.00            -18.4175            +98.3367
